[
	{
		"success": true,
		"timeout": false,
		"failed_images": [],
		"failed_audio": [],
		"failed_video": [],
		"trial_type": "preload",
		"trial_index": 0,
		"time_elapsed": 2,
		"internal_node_id": "0.0-0.0",
		"participant": "c9apa"
	},
	{
		"view_history": [
			{
				"page_index": 0,
				"viewing_time": 1039
			}
		],
		"rt": 1039,
		"part": "instructions",
		"trial_type": "instructions",
		"trial_index": 1,
		"time_elapsed": 1042,
		"internal_node_id": "0.0-1.0",
		"participant": "c9apa"
	},
	{
		"width": 1110,
		"height": 815,
		"webaudio": true,
		"browser": "firefox",
		"browser_version": "101.0.0",
		"mobile": false,
		"os": "Mac OS",
		"fullscreen": true,
		"vsync_rate": 60.3,
		"webcam": true,
		"microphone": true,
		"trial_type": "browser-check",
		"trial_index": 2,
		"time_elapsed": 2038,
		"internal_node_id": "0.0-2.0",
		"participant": "c9apa"
	},
	{
		"view_history": [
			{
				"page_index": 0,
				"viewing_time": 1070
			}
		],
		"rt": 1070,
		"part": "instructions",
		"trial_type": "instructions",
		"trial_index": 3,
		"time_elapsed": 3108,
		"internal_node_id": "0.0-3.0",
		"participant": "c9apa"
	},
	{
		"rt": 17132,
		"stimulus": "5 ingredients",
		"response": 0,
		"salade": 4,
		"tomate": 4,
		"fromage": 0,
		"viande": 4,
		"oignon": 2,
		"poivron": 0,
		"part": "burger_apprentissage",
		"burgerID": 1,
		"salade_nb": 4,
		"tomate_nb": 4,
		"oignon_nb": 2,
		"fromage_nb": 0,
		"viande_nb": 4,
		"poivron_nb": 0,
		"trial_type": "html-button-response",
		"trial_index": 4,
		"time_elapsed": 20242,
		"internal_node_id": "0.0-4.0",
		"participant": "c9apa",
		"correct": 1,
		"rt_mean": 17132
	},
	{
		"rt": null,
		"stimulus": "<img src='assets/correct.png' alt='' width='100px'>",
		"response": null,
		"trial_type": "html-keyboard-response",
		"trial_index": 5,
		"time_elapsed": 20997,
		"internal_node_id": "0.0-5.0",
		"participant": "c9apa"
	},
	{
		"view_history": [
			{
				"page_index": 0,
				"viewing_time": 3694
			}
		],
		"rt": 3694,
		"part": "instructions",
		"trial_type": "instructions",
		"trial_index": 6,
		"time_elapsed": 24691,
		"internal_node_id": "0.0-6.0",
		"participant": "c9apa"
	},
	{
		"rt": 15715,
		"stimulus": "5 ingredients",
		"response": 0,
		"salade": 4,
		"tomate": 5,
		"fromage": 2,
		"viande": 1,
		"oignon": 2,
		"poivron": 0,
		"part": "burger_facile",
		"burgerID": 1,
		"timeout_burger": 21.415000000000003,
		"salade_nb": 4,
		"tomate_nb": 5,
		"oignon_nb": 2,
		"fromage_nb": 2,
		"viande_nb": 1,
		"poivron_nb": 0,
		"trial_type": "html-button-response",
		"trial_index": 7,
		"time_elapsed": 40408,
		"internal_node_id": "0.0-7.0",
		"participant": "c9apa",
		"correct": 1,
		"rt_mean": 17132
	},
	{
		"rt": null,
		"stimulus": "<img src='assets/correct.png' alt='' width='100px'>",
		"response": null,
		"trial_type": "html-keyboard-response",
		"trial_index": 8,
		"time_elapsed": 41165,
		"internal_node_id": "0.0-8.0",
		"participant": "c9apa"
	},
	{
		"view_history": [
			{
				"page_index": 0,
				"viewing_time": 2126
			}
		],
		"rt": 2126,
		"part": "instructions",
		"trial_type": "instructions",
		"trial_index": 9,
		"time_elapsed": 43291,
		"internal_node_id": "0.0-9.0",
		"participant": "c9apa"
	},
	{
		"rt": 12849,
		"stimulus": "5 ingredients",
		"response": 0,
		"salade": 1,
		"tomate": 2,
		"fromage": 3,
		"viande": 2,
		"oignon": 5,
		"poivron": 1,
		"part": "burger_difficile",
		"burgerID": 1,
		"timeout_burger": 12.849,
		"salade_nb": 1,
		"tomate_nb": 2,
		"oignon_nb": 5,
		"fromage_nb": 3,
		"viande_nb": 2,
		"poivron_nb": 1,
		"trial_type": "html-button-response",
		"trial_index": 10,
		"time_elapsed": 56142,
		"internal_node_id": "0.0-10.0",
		"participant": "c9apa",
		"correct": 1,
		"rt_mean": 17132
	},
	{
		"rt": null,
		"stimulus": "<img src='assets/correct.png' alt='' width='100px'>",
		"response": null,
		"trial_type": "html-keyboard-response",
		"trial_index": 11,
		"time_elapsed": 56897,
		"internal_node_id": "0.0-11.0",
		"participant": "c9apa"
	}
]